Folder: coinmetrics-data/csv

File: xrd.csv
time,CapMrktEstUSD,ReferenceRate,ReferenceRateBTC,ReferenceRateETH,ReferenceRateEUR,ReferenceRateUSD,principal_market_price_usd,principal_market_usd
2022-03-14,1.14906e+09,,,,,,,
2022-03-18,1.26091e+09,,,,,,,
2022-03-22,1.42837e+09,,,,,,,
2022-03-26,1.44803e+09,,,,,,,
2022-03-30,1.55619e+09,,,,,,,
2022-04-03,1.49037e+09,,,,,,,
2022-04-07,1.3705e+09,,,,,,,
2022-04-11,1.30747e+09,,,,,,,
2022-04-15,1.3634e+09,,,,,,,
2022-04-19,1.34464e+09,,,,,,,
2022-04-23,1.26373e+09,,,,,,,
2022-04-27,1.24684e+09,,,,,,,
2022-05-01,1.11926e+09,,,,,,,
2022-05-05,1.12442e+09,,,,,,,
2022-05-09,9.59013e+08,,,,,,,
2022-05-13,8.70603e+08,,,,,,,
2022-05-17,8.61393e+08,,,,,,,
2022-05-21,8.25909e+08,,,,,,,
2022-05-25,8.81174e+08,,,,,,,
2022-05-29,8.18139e+08,,,,,,,
2022-06-02,8.2144e+08,,,,,,,
2022-06-06,8.03637e+08,,,,,,,
2022-06-10,7.64008e+08,,,,,,,
2022-06-14,6.1743e+08,,,,,,,
2022-06-18,6.13559e+08,,,,,,,
2022-06-22,6.23134e+08,,,,,,,
2022-06-26,6.70073e+08,,,,,,,
2022-06-30,6.35762e+08,,,,,,,
2022-07-04,6.12379e+08,,,,,,,
2022-07-08,6.36639e+08,,,,,,,
2022-07-12,6.13913e+08,,,,,,,
2022-07-16,6.31697e+08,,,,,,,
2022-07-20,6.42847e+08,,,,,,,
2022-07-24,6.33796e+08,,,,,,,
2022-07-28,6.39909e+08,,,,,,,
2022-08-01,6.21259e+08,,,,,,,
2022-08-05,6.04888e+08,,,,,,,
2022-08-09,6.18485e+08,,,,,,,
2022-08-13,6.403e+08,,,,,,,
2022-08-17,6.10865e+08,,,,,,,
2022-08-21,6.10413e+08,,,,,,,
2022-08-25,6.02826e+08,,,,,,,
2022-08-29,5.92399e+08,,,,,,,
2022-09-02,5.72699e+08,,,,,,,
2022-09-06,5.68385e+08,,,,,,,
2022-09-10,5.91036e+08,,,,,,,
2022-09-14,6.45426e+08,,,,,,,
2022-09-18,5.82159e+08,,,,,,,
2022-09-22,5.93506e+08,,,,,,,
2022-09-26,5.82903e+08,,,,,,,
2022-09-30,6.0092e+08,,,,,,,
2022-10-04,5.81224e+08,,,,,,,
2022-10-08,5.78189e+08,,,,,,,
2022-10-12,5.55217e+08,,,,,,,
2022-10-16,5.49923e+08,,,,,,,
2022-10-20,5.01318e+08,,,,,,,
2022-10-24,5.02911e+08,,,,,,,
2022-10-28,5.60093e+08,,,,,,,
2022-11-01,5.62106e+08,,,,,,,
2022-11-05,5.30739e+08,,,,,,,
2022-11-09,4.90522e+08,,,,,,,
2022-11-13,4.84909e+08,,,,,,,
2022-11-17,4.67408e+08,,,,,,,
2022-11-21,4.02917e+08,,,,,,,
2022-11-25,3.56357e+08,,,,,,,
2022-11-29,3.19284e+08,,,,,,,
2022-12-03,3.63782e+08,,,,,,,
2022-12-07,4.42068e+08,,,,,,,
2022-12-11,3.8417e+08,,,,,,,
2022-12-15,3.87118e+08,,,,,,,
2022-12-19,3.52336e+08,,,,,,,
2022-12-23,3.50439e+08,,,,,,,
2022-12-27,3.47606e+08,,,,,,,
2022-12-31,3.47186e+08,,,,,,,
2023-01-04,3.40051e+08,,,,,,,
2023-01-08,3.45256e+08,,,,,,,
2023-01-12,3.78001e+08,,,,,,,
2023-01-16,4.03638e+08,,,,,,,
2023-01-20,4.18309e+08,,,,,,,
2023-01-24,4.2387e+08,,,,,,,
2023-01-28,5.37555e+08,,,,,,,
2023-02-01,5.92847e+08,,,,,,,
2023-02-05,5.58731e+08,,,,,,,
2023-02-09,4.52085e+08,,,,,,,
2023-02-13,4.84069e+08,,,,,,,
2023-02-17,4.9914e+08,,,,,,,
2023-02-21,4.96327e+08,,,,,,,
2023-02-25,4.58039e+08,,,,,,,
2023-03-01,4.50278e+08,,,,,,,
2023-03-05,4.29226e+08,,,,,,,
2023-03-09,3.93199e+08,,,,,,,
2023-03-13,3.97271e+08,,,,,,,
2023-03-17,3.94818e+08,,,,,,,
2023-03-21,4.23594e+08,,,,,,,
2023-03-25,4.21166e+08,,,,,,,
2023-03-29,4.26615e+08,,,,,,,
2023-04-02,4.24506e+08,,,,,,,
2023-04-06,4.80942e+08,,,,,,,
2023-04-10,5.2599e+08,,,,,,,
2023-04-14,7.55616e+08,,,,,,,
2023-04-18,1.418e+09,,,,,,,
2023-04-22,1.02497e+09,,,,,,,
2023-04-26,1.05064e+09,,,,,,,
2023-04-30,1.03151e+09,,,,,,,
2023-05-04,8.53057e+08,,,,,,,
2023-05-08,8.30353e+08,,,,,,,
2023-05-12,7.74579e+08,,,,,,,
2023-05-16,7.90173e+08,,,,,,,
2023-05-20,7.34882e+08,,,,,,,
2023-05-24,7.31121e+08,,,,,,,
2023-05-28,7.31957e+08,,,,,,,
2023-06-01,6.91067e+08,,,,,,,
2023-06-05,6.58923e+08,,,,,,,
2023-06-09,6.81143e+08,,,,,,,
2023-06-13,6.09026e+08,,,,,,,
2023-06-17,6.19614e+08,,,,,,,
2023-06-21,6.79931e+08,,,,,,,
2023-06-25,7.93721e+08,,,,,,,
2023-06-29,6.8373e+08,,,,,,,
2023-07-03,6.5317e+08,,,,,,,
2023-07-07,5.92312e+08,,,,,,,
2023-07-11,5.66053e+08,,,,,,,
2023-07-15,6.48965e+08,,,,,,,
2023-07-19,6.09465e+08,,,,,,,
2023-07-23,5.94493e+08,,,,,,,
2023-07-27,5.74486e+08,,,,,,,
2023-07-31,5.6333e+08,,,,,,,
2023-08-04,5.36136e+08,,,,,,,
2023-08-08,5.40869e+08,,,,,,,
2023-08-12,5.82034e+08,,,,,,,
2023-08-16,5.76368e+08,,,,,,,
2023-08-20,5.59488e+08,,,,,,,
2023-08-24,5.40893e+08,,,,,,,
2023-08-28,5.3671e+08,,,,,,,
2023-09-01,5.34754e+08,,,,,,,
2023-09-05,5.62542e+08,,,,,,,
2023-09-09,6.45183e+08,,,,,,,
2023-09-13,5.82577e+08,,,,,,,
2023-09-17,5.63061e+08,,,,,,,
2023-09-21,5.94244e+08,,,,,,,
2023-09-25,6.31086e+08,,,,,,,
2023-09-29,5.93443e+08,,,,,,,
2023-10-03,5.80026e+08,,,,,,,
2023-10-07,4.91455e+08,,,,,,,
2023-10-11,4.26097e+08,,,,,,,
2023-10-15,4.11451e+08,,,,,,,
2023-10-19,4.2899e+08,,,,,,,
2023-10-23,4.47282e+08,,,,,,,
2023-10-27,4.24157e+08,,,,,,,
2023-10-31,4.36242e+08,,,,,,,
2023-11-04,4.35895e+08,,,,,,,
2023-11-08,4.42427e+08,,,,,,,
2023-11-12,4.64398e+08,,,,,,,
2023-11-16,4.76418e+08,,,,,,,
2023-11-20,5.72438e+08,,,,,,,
2023-11-24,5.89819e+08,,,,,,,
2023-11-28,5.2383e+08,,,,,,,
2023-12-02,6.04359e+08,,,,,,,
2023-12-06,5.27615e+08,,,,,,,
2023-12-10,5.16993e+08,,,,,,,
2023-12-14,4.89624e+08,,,,,,,
2023-12-18,4.29696e+08,,,,,,,
2023-12-22,4.82074e+08,,,,,,,
2023-12-26,4.61881e+08,,,,,,,
2023-12-30,4.41697e+08,,,,,,,
2024-01-03,4.24596e+08,,,,,,,
2024-01-07,4.24571e+08,,,,,,,
2024-01-11,4.21767e+08,,,,,,,
2024-01-15,4.46445e+08,,,,,,,
2024-01-19,4.58337e+08,,,,,,,
2024-01-23,4.24553e+08,,,,,,,
2024-01-27,4.41645e+08,,,,,,,
2024-01-31,4.15021e+08,,,,,,,
2024-02-04,4.09603e+08,,,,,,,
2024-02-08,4.02948e+08,,,,,,,
2024-02-12,4.30968e+08,,,,,,,
2024-02-16,4.44875e+08,,,,,,,
2024-02-20,5.02676e+08,,,,,,,
2024-02-24,4.73762e+08,,,,,,,
2024-02-28,4.5992e+08,,,,,,,
2024-03-03,4.68632e+08,,,,,,,
2024-03-07,4.12769e+08,,,,,,,
2024-03-11,4.57268e+08,,,,,,,
2024-03-15,6.72518e+08,,,,,,,
2024-03-19,6.62478e+08,,,,,,,
2024-03-23,7.0318e+08,,,,,,,
2024-03-27,8.0954e+08,,,,,,,
2024-03-31,7.9798e+08,,,,,,,
2024-04-04,7.24615e+08,,,,,,,
2024-04-08,8.04542e+08,,,,,,,
2024-04-12,6.45812e+08,,,,,,,
2024-04-16,5.6309e+08,,,,,,,
2024-04-20,5.74011e+08,,,,,,,
2024-04-24,5.38471e+08,,,,,,,
2024-04-28,5.21796e+08,,,,,,,
2024-05-02,4.53058e+08,,,,,,,
2024-05-06,4.59307e+08,,,,,,,
2024-05-10,4.67422e+08,,,,,,,
2024-05-14,4.46112e+08,,,,,,,
2024-05-18,4.7488e+08,,,,,,,
2024-05-22,4.54727e+08,,,,,,,
2024-05-26,4.28182e+08,,,,,,,
2024-05-30,4.11444e+08,,,,,,,
2024-06-03,4.08736e+08,,,,,,,
2024-06-07,4.09395e+08,,,,,,,
2024-06-11,3.88559e+08,,,,,,,
2024-06-15,3.61153e+08,,,,,,,
2024-06-19,3.42632e+08,,,,,,,
2024-06-23,3.17282e+08,,,,,,,
2024-06-27,3.12769e+08,,,,,,,
2024-07-01,3.23012e+08,,,,,,,
2024-07-05,3.00485e+08,,,,,,,
2024-07-09,2.97373e+08,,,,,,,
2024-07-13,2.9237e+08,,,,,,,
2024-07-17,3.126e+08,,,,,,,
2024-07-21,3.01302e+08,,,,,,,
2024-07-25,2.85341e+08,,,,,,,
2024-07-29,2.94412e+08,,,,,,,
2024-08-02,2.68717e+08,,,,,,,
2024-08-06,2.61536e+08,,,,,,,
2024-08-10,2.96882e+08,,,,,,,
2024-08-14,2.78969e+08,,,,,,,
2024-08-18,2.49758e+08,,,,,,,
2024-08-22,2.49858e+08,,,,,,,
2024-08-26,2.59475e+08,,,,,,,
2024-08-30,2.45071e+08,,,,,,,
2024-09-03,2.38775e+08,,,,,,,
2024-09-07,2.15256e+08,,,,,,,
2024-09-11,2.05355e+08,,,,,,,
2024-09-15,2.16613e+08,,,,,,,
2024-09-19,2.25774e+08,,,,,,,
2024-09-23,2.22605e+08,,,,,,,
2024-09-27,2.29049e+08,,,,,,,
2024-10-01,1.82785e+08,,,,,,,
2024-10-05,1.71517e+08,,,,,,,
2024-10-09,1.54458e+08,,,,,,,
2024-10-13,1.57394e+08,,,,,,,
2024-10-17,1.6753e+08,,,,,,,
2024-10-21,1.76133e+08,,,,,,,
2024-10-25,1.54378e+08,,,,,,,
2024-10-29,1.66431e+08,,,,,,,
2024-11-02,1.67547e+08,,,,,,,
2024-11-06,1.67361e+08,,,,,,,
2024-11-10,1.82464e+08,,,,,,,
2024-11-14,1.68149e+08,,,,,,,
2024-11-18,1.81848e+08,,,,,,,
2024-11-22,2.18258e+08,,,,,,,
2024-11-26,2.52964e+08,,,,,,,
2024-11-30,3.25096e+08,,,,,,,
2024-12-04,3.61492e+08,0.0329853,3.43557e-07,9.10211e-06,0.0313435,0.0329853,0.0330208,gate.io-xrd-usdt-spot
2024-12-08,3.80026e+08,0.038065,3.80735e-07,9.50153e-06,0.0359445,0.038065,0.0381195,gate.io-xrd-usdt-spot
2024-12-09,,0.035809,3.55252e-07,8.94857e-06,0.0338534,0.035809,0.0357461,gate.io-xrd-usdt-spot